<ODM FileType="Snapshot" ODMVersion="1.3.2" CreationDateTime="2024-06-01T12:00:00" xmlns="http://www.cdisc.org/ns/odm/v1.3" XLMS_def="http://www.cdisc.org/ns/def/v2.1"><Study OID="STUDY1"><MetaDataVersion OID="MDV1" Name="Metadata Version 1" Description="Metadata Version 1"><Standards Name="SDTMIG" Type="IG" Version="3.2.1" CommentOID="COM.STD1" /><ItemGroupDef OID="IG.TS" Name="TS" Domain="TS" Purpose="Tabulation" SasDatasetName="TS" Repeating="No" IsReferenceData="Yes" Structure="One record per trial summary parameter value" ArchiveLocation="LF.TS" StandardOID="MDV1"><Description><TranslatedText xml_lang="en">Trial Summary</TranslatedText></Description><ItemRef ItemOID="IT.STUDYID" Mandatory="Yes" OrderNumber="1" /><ItemRef ItemOID="IT.TS.DOMAIN" Mandatory="Yes" OrderNumber="2" /><ItemRef ItemOID="IT.TS.TSSEQ" Mandatory="Yes" OrderNumber="3" /><ItemRef ItemOID="IT.TS.TSGRPID" Mandatory="No" OrderNumber="4" /><ItemRef ItemOID="IT.TS.TSPARMCD" Mandatory="Yes" OrderNumber="5" /><ItemRef ItemOID="IT.TS.TSPARM" Mandatory="Yes" OrderNumber="6" /><ItemRef ItemOID="IT.TS.TSVAL" Mandatory="No" OrderNumber="7" /><ItemRef ItemOID="IT.TS.TSVALNF" Mandatory="No" OrderNumber="8" /><ItemRef ItemOID="IT.TS.TSVALCD" Mandatory="No" OrderNumber="9" /><ItemRef ItemOID="IT.TS.TSVCDREF" Mandatory="No" OrderNumber="10" /><ItemRef ItemOID="IT.TS.TSVCDVER" Mandatory="No" OrderNumber="11" /></ItemGroupDef><ItemGroupDef OID="IG.TA" Name="TA" Domain="TA" Purpose="Tabulation" SasDatasetName="TA" Repeating="No" IsReferenceData="Yes" Structure="One record per arm and epoch" ArchiveLocation="LF.TA" StandardOID="MDV1"><Description><TranslatedText xml_lang="en">Trial Arms</TranslatedText></Description><ItemRef ItemOID="IT.STUDYID" Mandatory="Yes" OrderNumber="1" /><ItemRef ItemOID="IT.TA.DOMAIN" Mandatory="Yes" OrderNumber="2" /><ItemRef ItemOID="IT.TA.ARMCD" Mandatory="Yes" OrderNumber="3" CodeListRef="CL.ARMCD" /><ItemRef ItemOID="IT.TA.ARM" Mandatory="Yes" OrderNumber="4" CodeListRef="CL.ARM" /><ItemRef ItemOID="IT.TA.TAETORD" Mandatory="Yes" OrderNumber="5" MethodOID="MT.TAETORD" /><ItemRef ItemOID="IT.TA.ETCD" Mandatory="Yes" OrderNumber="6" /><ItemRef ItemOID="IT.TA.ELEMENT" Mandatory="No" OrderNumber="7" /><ItemRef ItemOID="IT.TA.TABRANCH" Mandatory="No" OrderNumber="8" /><ItemRef ItemOID="IT.TA.TATRANS" Mandatory="No" OrderNumber="9" /><ItemRef ItemOID="IT.TA.EPOCH" Mandatory="Yes" OrderNumber="10" /></ItemGroupDef><ItemGroupDef OID="IG.TE" Name="TE" Domain="TE" Purpose="Tabulation" SasDatasetName="TE" Repeating="No" IsReferenceData="Yes" Structure="One record per element" ArchiveLocation="LF.TE" StandardOID="MDV1"><Description><TranslatedText xml_lang="en">Trial Elements</TranslatedText></Description></ItemGroupDef><ItemGroupDef OID="IG.TV" Name="TV" Domain="TV" Purpose="Tabulation" SasDatasetName="TV" Repeating="No" IsReferenceData="Yes" Structure="One record per planned visit" ArchiveLocation="LF.TV" StandardOID="MDV1"><Description><TranslatedText xml_lang="en">Trial Visits</TranslatedText></Description></ItemGroupDef><ItemGroupDef OID="IG.TI" Name="TI" Domain="TI" Purpose="Tabulation" SasDatasetName="TI" Repeating="No" IsReferenceData="Yes" Structure="One record per eligibility criterion per study version" ArchiveLocation="LF.TI" StandardOID="MDV1"><Description><TranslatedText xml_lang="en">Trial Inclusion and Exclusion Criteria</TranslatedText></Description><ItemRef ItemOID="IT.STUDYID" Mandatory="Yes" OrderNumber="1" /><ItemRef ItemOID="IT.TI.DOMAIN" Mandatory="Yes" OrderNumber="2" /><ItemRef ItemOID="IT.TI.IETESTCD" Mandatory="Yes" OrderNumber="3" /><ItemRef ItemOID="IT.TI.IETEST" Mandatory="Yes" OrderNumber="4" /><ItemRef ItemOID="IT.TI.IECAT" Mandatory="Yes" OrderNumber="5" /><ItemRef ItemOID="IT.TI.IESCAT" Mandatory="No" OrderNumber="6" /><ItemRef ItemOID="IT.TI.TIRL" Mandatory="No" OrderNumber="7" /><ItemRef ItemOID="IT.TI.TIVERS" Mandatory="No" OrderNumber="8" /></ItemGroupDef><ItemDef OID="IT.STUDYID" Name="STUDYID" DataType="text" SASFieldName="STUDYID"><Description><TranslatedText xml_lang="en">Study Identifier</TranslatedText></Description></ItemDef><ItemDef OID="IT.TS.DOMAIN" Name="DOMAIN" DataType="text" SASFieldName="DOMAIN"><Description><TranslatedText xml_lang="en">Domain Abbreviation</TranslatedText></Description></ItemDef><ItemDef OID="IT.TS.TSSEQ" Name="TSSEQ" DataType="integer" SASFieldName="TSSEQ"><Description><TranslatedText xml_lang="en">Sequence Number</TranslatedText></Description></ItemDef><ItemDef OID="IT.TS.TSGRPID" Name="TSGRPID" DataType="text" SASFieldName="TSGRPID"><Description><TranslatedText xml_lang="en">Group ID</TranslatedText></Description></ItemDef><ItemDef OID="IT.TS.TSPARMCD" Name="TSPARMCD" DataType="text" SASFieldName="TSPARMCD"><Description><TranslatedText xml_lang="en">Trial Summary Parameter Short Name</TranslatedText></Description></ItemDef><ItemDef OID="IT.TS.TSPARM" Name="TSPARM" DataType="text" SASFieldName="TSPARM"><Description><TranslatedText xml_lang="en">Trial Summary Parameter</TranslatedText></Description></ItemDef><ItemDef OID="IT.TS.TSVAL" Name="TSVAL" DataType="text" SASFieldName="TSVAL"><Description><TranslatedText xml_lang="en">Parameter Value</TranslatedText></Description></ItemDef><ItemDef OID="IT.TS.TSVALNF" Name="TSVALNF" DataType="text" SASFieldName="TSVALNF"><Description><TranslatedText xml_lang="en">Parameter Value Null Flavor</TranslatedText></Description></ItemDef><ItemDef OID="IT.TS.TSVALCD" Name="TSVALCD" DataType="text" SASFieldName="TSVALCD"><Description><TranslatedText xml_lang="en">Parameter Value Code</TranslatedText></Description></ItemDef><ItemDef OID="IT.TS.TSVCDREF" Name="TSVCDREF" DataType="text" SASFieldName="TSVCDREF"><Description><TranslatedText xml_lang="en">Name of Reference Terminology</TranslatedText></Description></ItemDef><ItemDef OID="IT.TS.TSVCDVER" Name="TSVCDVER" DataType="text" SASFieldName="TSVCDVER"><Description><TranslatedText xml_lang="en">Version of the Reference Terminology</TranslatedText></Description></ItemDef><ItemDef OID="IT.STUDYID" Name="STUDYID" DataType="text" SASFieldName="STUDYID"><Description><TranslatedText xml_lang="en">Study Identifier</TranslatedText></Description></ItemDef><ItemDef OID="IT.TI.DOMAIN" Name="DOMAIN" DataType="text" SASFieldName="DOMAIN"><Description><TranslatedText xml_lang="en">Domain Abbreviation</TranslatedText></Description></ItemDef><ItemDef OID="IT.TI.IETESTCD" Name="IETESTCD" DataType="text" SASFieldName="IETESTCD"><Description><TranslatedText xml_lang="en">Incl/Excl Criterion Short Name</TranslatedText></Description></ItemDef><ItemDef OID="IT.TI.IETEST" Name="IETEST" DataType="text" SASFieldName="IETEST"><Description><TranslatedText xml_lang="en">Inclusion/Exclusion Criterion</TranslatedText></Description></ItemDef><ItemDef OID="IT.TI.IECAT" Name="IECAT" DataType="text" SASFieldName="IECAT"><Description><TranslatedText xml_lang="en">Inclusion/Exclusion Category</TranslatedText></Description></ItemDef><ItemDef OID="IT.TI.IESCAT" Name="IESCAT" DataType="text" SASFieldName="IESCAT"><Description><TranslatedText xml_lang="en">Inclusion/Exclusion Subcategory</TranslatedText></Description></ItemDef><ItemDef OID="IT.TI.TIRL" Name="TIRL" DataType="text" SASFieldName="TIRL"><Description><TranslatedText xml_lang="en">Inclusion/Exclusion Criterion Rule</TranslatedText></Description></ItemDef><ItemDef OID="IT.TI.TIVERS" Name="TIVERS" DataType="text" SASFieldName="TIVERS"><Description><TranslatedText xml_lang="en">Protocol Criteria Versions</TranslatedText></Description></ItemDef><ItemDef OID="IT.STUDYID" Name="STUDYID" DataType="text" SASFieldName="STUDYID"><Description><TranslatedText xml_lang="en">Study Identifier</TranslatedText></Description></ItemDef><ItemDef OID="IT.TA.DOMAIN" Name="DOMAIN" DataType="text" SASFieldName="DOMAIN"><Description><TranslatedText xml_lang="en">Domain Abbreviation</TranslatedText></Description></ItemDef><ItemDef OID="IT.TA.ARMCD" Name="ARMCD" DataType="text" SASFieldName="ARMCD"><Description><TranslatedText xml_lang="en">Planned Arm Code</TranslatedText></Description></ItemDef><ItemDef OID="IT.TA.ARM" Name="ARM" DataType="text" SASFieldName="ARM"><Description><TranslatedText xml_lang="en">Description of Planned Arm</TranslatedText></Description></ItemDef><ItemDef OID="IT.TA.TAETORD" Name="TAETORD" DataType="integer" SASFieldName="TAETORD"><Description><TranslatedText xml_lang="en">Planned Order of Element within Arm</TranslatedText></Description></ItemDef><ItemDef OID="IT.TA.ETCD" Name="ETCD" DataType="text" SASFieldName="ETCD"><Description><TranslatedText xml_lang="en">Element Code</TranslatedText></Description></ItemDef><ItemDef OID="IT.TA.ELEMENT" Name="ELEMENT" DataType="text" SASFieldName="ELEMENT"><Description><TranslatedText xml_lang="en">Description of Element</TranslatedText></Description></ItemDef><ItemDef OID="IT.TA.TABRANCH" Name="TABRANCH" DataType="text" SASFieldName="TABRANCH"><Description><TranslatedText xml_lang="en">Branch</TranslatedText></Description></ItemDef><ItemDef OID="IT.TA.TATRANS" Name="TATRANS" DataType="text" SASFieldName="TATRANS"><Description><TranslatedText xml_lang="en">Transition Rule</TranslatedText></Description></ItemDef><ItemDef OID="IT.TA.EPOCH" Name="EPOCH" DataType="text" SASFieldName="EPOCH"><Description><TranslatedText xml_lang="en">Epoch</TranslatedText></Description></ItemDef><MethodDef OID="MT.TAETORD" Name="TAETORD Derivation Method" Type="Computation"><Description><TranslatedText xml_lang="en">Sequential number identifying the order of epochs within an arm. Based on the previous and next epoch start date and time. The first epoch of an arm is assigned a TAETORD of 1.</TranslatedText></Description></MethodDef><CodeList OID="CL.ARM" Name="Arm" DataType="text"><EnumeratedItem CodedValue="PL" /><EnumeratedItem CodedValue="ACTLOW" /><EnumeratedItem CodedValue="ACTHIGH" /></CodeList><CodeList OID="CL.ARMCD" Name="Arm Code" DataType="text"><CodeListItem CodedValue="Placebo"><Decode><TranslatedText lang="en">PL</TranslatedText></Decode></CodeListItem><CodeListItem CodedValue="Xanomeline Low Dose"><Decode><TranslatedText lang="en">ACTLOW</TranslatedText></Decode></CodeListItem><CodeListItem CodedValue="Xanomeline High Dose"><Decode><TranslatedText lang="en">ACTHIGH</TranslatedText></Decode></CodeListItem></CodeList><CodeList OID="CL.TS.DOMAIN" Name="Domain Abbreviation (TS)" DataType="text"><CodeListItem CodedValue="TS"><Decode><TranslatedText lang="en">Trial Summary</TranslatedText></Decode></CodeListItem></CodeList><CodeList OID="CL.TA.DOMAIN" Name="Domain Abbreviation (TA)" DataType="text"><CodeListItem CodedValue="TA"><Decode><TranslatedText lang="en">Trial Arms</TranslatedText></Decode></CodeListItem></CodeList><CodeList OID="CL.TE.DOMAIN" Name="Domain Abbreviation (TE)" DataType="text"><CodeListItem CodedValue="TE"><Decode><TranslatedText lang="en">Trial Elements</TranslatedText></Decode></CodeListItem></CodeList><CodeList OID="CL.TV.DOMAIN" Name="Domain Abbreviation (TV)" DataType="text"><CodeListItem CodedValue="TV"><Decode><TranslatedText lang="en">Trial Visits</TranslatedText></Decode></CodeListItem></CodeList><CodeList OID="CL.TI.DOMAIN" Name="Domain Abbreviation (TI)" DataType="text"><CodeListItem CodedValue="TI"><Decode><TranslatedText lang="en">Trial Inclusion and Exclusion Criteria</TranslatedText></Decode></CodeListItem></CodeList></MetaDataVersion></Study></ODM>